"view_history","rt","trial_type","trial_index","time_elapsed","internal_node_id","response"
"[{""page_index"":0,""viewing_time"":5973}]","5973","instructions","0","5975","0.0-0.0",""
"","25406","html-slider-response","1","31638","0.0-1.0","100"
"[{""page_index"":0,""viewing_time"":3208}]","3208","instructions","2","35100","0.0-2.0",""
"","7528","html-slider-response","3","42880","0.0-3.0","0"
"[{""page_index"":0,""viewing_time"":2942}]","2942","instructions","4","46076","0.0-4.0",""
"","13056","html-slider-response","5","59384","0.0-5.0","1"
"[{""page_index"":0,""viewing_time"":968}]","968","instructions","6","60603","0.0-6.0",""
"","21064","html-slider-response","7","81923","0.0-7.0","0"
"[{""page_index"":0,""viewing_time"":777}]","778","instructions","8","82955","0.0-8.0",""
"","11844","html-slider-response","9","95055","0.0-9.0","100"
"[{""page_index"":0,""viewing_time"":2417}]","2417","instructions","10","97722","0.0-10.0",""
"","11699","html-slider-response","11","109676","0.0-11.0","100"
"[{""page_index"":0,""viewing_time"":1471}]","1471","instructions","12","111402","0.0-12.0",""
"","12254","html-slider-response","13","123910","0.0-13.0","0"
"[{""page_index"":0,""viewing_time"":695}]","695","instructions","14","124857","0.0-14.0",""
"","9093","html-slider-response","15","134201","0.0-15.0","0"
"[{""page_index"":0,""viewing_time"":1331}]","1331","instructions","16","135785","0.0-16.0",""
"[{""page_index"":0,""viewing_time"":4021}]","4021","instructions","17","140057","0.0-17.0",""
"","11012","html-slider-response","18","151321","0.0-18.0","0"
"[{""page_index"":0,""viewing_time"":4347}]","4347","instructions","19","155920","0.0-19.0",""
"","5592","html-slider-response","20","161768","0.0-20.0","100"
"[{""page_index"":0,""viewing_time"":1475}]","1475","instructions","21","163496","0.0-21.0",""
"","6866","html-slider-response","22","170616","0.0-22.0","0"
"[{""page_index"":0,""viewing_time"":553}]","553","instructions","23","171424","0.0-23.0",""
"","12085","html-slider-response","24","183764","0.0-24.0","0"
"[{""page_index"":0,""viewing_time"":2886}]","2886","instructions","25","186904","0.0-25.0",""
"","4110","html-slider-response","26","191267","0.0-26.0","100"
"[{""page_index"":0,""viewing_time"":1230}]","1230","instructions","27","192751","0.0-27.0",""
"","7036","html-slider-response","28","200043","0.0-28.0","0"
"[{""page_index"":0,""viewing_time"":833}]","833","instructions","29","201127","0.0-29.0",""
"","7981","html-slider-response","30","209363","0.0-30.0","0"
"[{""page_index"":0,""viewing_time"":734}]","734","instructions","31","210351","0.0-31.0",""
"","8366","html-slider-response","32","218971","0.0-32.0","0"
"[{""page_index"":0,""viewing_time"":1479}]","1479","instructions","33","220702","0.0-33.0",""
"[{""page_index"":0,""viewing_time"":3301}]","3301","instructions","34","224254","0.0-34.0",""
"[{""page_index"":0,""viewing_time"":6505}]","6505","instructions","35","231014","0.0-35.0",""
"","4029","html-slider-response","36","235294","0.0-36.0","100"
"[{""page_index"":0,""viewing_time"":1041}]","1041","instructions","37","236590","0.0-37.0",""
"","7179","html-slider-response","38","244022","0.0-38.0","0"
"[{""page_index"":0,""viewing_time"":867}]","867","instructions","39","245142","0.0-39.0",""
"","10373","html-slider-response","40","255766","0.0-40.0","0"
"[{""page_index"":0,""viewing_time"":5554}]","5554","instructions","41","261573","0.0-41.0",""
"","6417","html-slider-response","42","268245","0.0-42.0","100"
"[{""page_index"":0,""viewing_time"":812}]","812","instructions","43","269309","0.0-43.0",""
"","10314","html-slider-response","44","279877","0.0-44.0","0"
"[{""page_index"":0,""viewing_time"":789}]","789","instructions","45","280917","0.0-45.0",""
"","8601","html-slider-response","46","289773","0.0-46.0","100"
"[{""page_index"":0,""viewing_time"":757}]","757","instructions","47","290780","0.0-47.0",""
"","7623","html-slider-response","48","298656","0.0-48.0","0"
"[{""page_index"":0,""viewing_time"":1631}]","1631","instructions","49","300540","0.0-49.0",""
"[{""page_index"":0,""viewing_time"":3809}]","3809","instructions","50","304604","0.0-50.0",""
"","16269","html-slider-response","51","321128","0.0-51.0","100"
"[{""page_index"":0,""viewing_time"":3222}]","3222","instructions","52","324603","0.0-52.0",""
"","4261","html-slider-response","53","329119","0.0-53.0","0"
"[{""page_index"":0,""viewing_time"":854}]","854","instructions","54","330227","0.0-54.0",""
"[{""page_index"":0,""viewing_time"":1657}]","1657","instructions","55","332139","0.0-55.0",""
"","9821","html-slider-response","56","342215","0.0-56.0","0"
"[{""page_index"":0,""viewing_time"":1025}]","1025","instructions","57","343491","0.0-57.0",""
"","26614","html-slider-response","58","370358","0.0-58.0","0"
"[{""page_index"":0,""viewing_time"":777}]","777","instructions","59","371386","0.0-59.0",""
"","9896","html-slider-response","60","381534","0.0-60.0","0"
"[{""page_index"":0,""viewing_time"":781}]","782","instructions","61","382570","0.0-61.0",""
"","8139","html-slider-response","62","390962","0.0-62.0","0"
"[{""page_index"":0,""viewing_time"":797}]","797","instructions","63","392010","0.0-63.0",""
"","6425","html-slider-response","64","398689","0.0-64.0","0"
"[{""page_index"":0,""viewing_time"":1753}]","1753","instructions","65","400697","0.0-65.0",""
"[{""page_index"":0,""viewing_time"":3921}]","3921","instructions","66","404873","0.0-66.0",""
"","12071","html-slider-response","67","417197","0.0-67.0","0"
"[{""page_index"":0,""viewing_time"":2740}]","2740","instructions","68","420192","0.0-68.0",""
"[{""page_index"":0,""viewing_time"":841}]","841","instructions","69","421289","0.0-69.0",""
"","5824","html-slider-response","70","427368","0.0-70.0","0"
"[{""page_index"":0,""viewing_time"":940}]","940","instructions","71","428560","0.0-71.0",""
"","12615","html-slider-response","72","441426","0.0-72.0","0"
"[{""page_index"":0,""viewing_time"":851}]","851","instructions","73","442528","0.0-73.0",""
"","9111","html-slider-response","74","451892","0.0-74.0","100"
"[{""page_index"":0,""viewing_time"":911}]","911","instructions","75","453055","0.0-75.0",""
"","7971","html-slider-response","76","461279","0.0-76.0","100"
"[{""page_index"":0,""viewing_time"":499}]","499","instructions","77","462031","0.0-77.0",""
"[{""page_index"":0,""viewing_time"":2549}]","2549","instructions","78","464831","0.0-78.0",""
"","9987","html-slider-response","79","475071","0.0-79.0","0"
"[{""page_index"":0,""viewing_time"":1338}]","1339","instructions","80","476663","0.0-80.0",""
"[{""page_index"":0,""viewing_time"":1900}]","1900","instructions","81","478815","0.0-81.0",""
"","13292","html-slider-response","82","492358","0.0-82.0","100"
"[{""page_index"":0,""viewing_time"":1706}]","1706","instructions","83","494318","0.0-83.0",""
"","7708","html-slider-response","84","502282","0.0-84.0","0"
"[{""page_index"":0,""viewing_time"":694}]","694","instructions","85","503230","0.0-85.0",""
"","5954","html-slider-response","86","509438","0.0-86.0","100"
"[{""page_index"":0,""viewing_time"":586}]","586","instructions","87","510278","0.0-87.0",""
"","19685","html-slider-response","88","530213","0.0-88.0","0"
"[{""page_index"":0,""viewing_time"":661}]","661","instructions","89","531125","0.0-89.0",""
"","5677","html-slider-response","90","537053","0.0-90.0","100"
"[{""page_index"":0,""viewing_time"":1290}]","1290","instructions","91","538597","0.0-91.0",""
"[{""page_index"":0,""viewing_time"":1885}]","1885","instructions","92","540733","0.0-92.0",""
"","4890","html-slider-response","93","545877","0.0-93.0","0"
"[{""page_index"":0,""viewing_time"":868}]","868","instructions","94","546997","0.0-94.0",""
"","7943","html-slider-response","95","555193","0.0-95.0","0"
"[{""page_index"":0,""viewing_time"":801}]","801","instructions","96","556244","0.0-96.0",""
"[{""page_index"":0,""viewing_time"":4385}]","4385","instructions","97","560884","0.0-97.0",""
"","4830","html-slider-response","98","565968","0.0-98.0","0"
"[{""page_index"":0,""viewing_time"":2990}]","2990","instructions","99","569212","0.0-99.0",""
"","4282","html-slider-response","100","573748","0.0-100.0","100"
"[{""page_index"":0,""viewing_time"":726}]","726","instructions","101","574724","0.0-101.0",""
"","8696","html-slider-response","102","583676","0.0-102.0","0"
"[{""page_index"":0,""viewing_time"":562}]","563","instructions","103","584492","0.0-103.0",""
"","19056","html-slider-response","104","603803","0.0-104.0","100"
"[{""page_index"":0,""viewing_time"":594}]","594","instructions","105","604651","0.0-105.0",""
"","5038","html-slider-response","106","609943","0.0-106.0","0"
"[{""page_index"":0,""viewing_time"":1518}]","1518","instructions","107","611715","0.0-107.0",""
"","7278","html-slider-response","108","619246","0.0-108.0","0"
"[{""page_index"":0,""viewing_time"":805}]","805","instructions","109","620306","0.0-109.0",""
"[{""page_index"":0,""viewing_time"":2485}]","2485","instructions","110","623042","0.0-110.0",""
"","4789","html-slider-response","111","628086","0.0-111.0","100"
"[{""page_index"":0,""viewing_time"":1022}]","1022","instructions","112","629362","0.0-112.0",""
"[{""page_index"":0,""viewing_time"":3041}]","3041","instructions","113","632658","0.0-113.0",""
"","8577","html-slider-response","114","641490","0.0-114.0","0"
"[{""page_index"":0,""viewing_time"":2350}]","2350","instructions","115","644090","0.0-115.0",""
"","4880","html-slider-response","116","649222","0.0-116.0","0"
"[{""page_index"":0,""viewing_time"":822}]","822","instructions","117","650298","0.0-117.0",""
"","6225","html-slider-response","118","656778","0.0-118.0","0"
"[{""page_index"":0,""viewing_time"":565}]","565","instructions","119","657593","0.0-119.0",""
"","15890","html-slider-response","120","673737","0.0-120.0","100"
"[{""page_index"":0,""viewing_time"":803}]","803","instructions","121","674793","0.0-121.0",""
"","4602","html-slider-response","122","679645","0.0-122.0","0"
"[{""page_index"":0,""viewing_time"":906}]","906","instructions","123","680801","0.0-123.0",""
"","6340","html-slider-response","124","687397","0.0-124.0","0"
"[{""page_index"":0,""viewing_time"":615}]","615","instructions","125","688264","0.0-125.0",""
"","4752","html-slider-response","126","693272","0.0-126.0","100"
"[{""page_index"":0,""viewing_time"":897}]","897","instructions","127","694424","0.0-127.0",""
"[{""page_index"":0,""viewing_time"":2610}]","2610","instructions","128","697288","0.0-128.0",""
"[{""page_index"":0,""viewing_time"":1934}]","1934","instructions","129","699472","0.0-129.0",""
"","16188","html-slider-response","130","715916","0.0-130.0","0"
"[{""page_index"":0,""viewing_time"":2254}]","2254","instructions","131","718423","0.0-131.0",""
"[{""page_index"":0,""viewing_time"":2554}]","2554","instructions","132","721231","0.0-132.0",""
"","6441","html-slider-response","133","727927","0.0-133.0","100"
"[{""page_index"":0,""viewing_time"":640}]","640","instructions","134","728823","0.0-134.0",""
"","7594","html-slider-response","135","736671","0.0-135.0","100"
"[{""page_index"":0,""viewing_time"":1300}]","1300","instructions","136","738223","0.0-136.0",""
"","5948","html-slider-response","137","744423","0.0-137.0","100"
"[{""page_index"":0,""viewing_time"":897}]","897","instructions","138","745575","0.0-138.0",""
"","6459","html-slider-response","139","752287","0.0-139.0","100"
"[{""page_index"":0,""viewing_time"":625}]","625","instructions","140","753167","0.0-140.0",""
"","6573","html-slider-response","141","759994","0.0-141.0","100"
"[{""page_index"":0,""viewing_time"":812}]","812","instructions","142","761062","0.0-142.0",""
"","5964","html-slider-response","143","767282","0.0-143.0","100"
"[{""page_index"":0,""viewing_time"":1329}]","1329","instructions","144","768862","0.0-144.0",""
"[{""page_index"":0,""viewing_time"":1521}]","1521","instructions","145","770638","0.0-145.0",""
"[{""page_index"":0,""viewing_time"":1729}]","1729","instructions","146","772622","0.0-146.0",""
"","5313","html-slider-response","147","778186","0.0-147.0","100"
"[{""page_index"":0,""viewing_time"":631}]","631","instructions","148","779070","0.0-148.0",""
"","9096","html-slider-response","149","788418","0.0-149.0","100"
"[{""page_index"":0,""viewing_time"":526}]","527","instructions","150","789198","0.0-150.0",""
"","5060","html-slider-response","151","794510","0.0-151.0","0"
"[{""page_index"":0,""viewing_time"":611}]","611","instructions","152","795373","0.0-152.0",""
"","4133","html-slider-response","153","799757","0.0-153.0","100"
"[{""page_index"":0,""viewing_time"":873}]","873","instructions","154","800885","0.0-154.0",""
"","3144","html-slider-response","155","804281","0.0-155.0","0"
"[{""page_index"":0,""viewing_time"":736}]","736","instructions","156","805269","0.0-156.0",""
"","7308","html-slider-response","157","812829","0.0-157.0","0"
"[{""page_index"":0,""viewing_time"":875}]","875","instructions","158","813957","0.0-158.0",""
"","4485","html-slider-response","159","818693","0.0-159.0","0"
"[{""page_index"":0,""viewing_time"":1029}]","1029","instructions","160","819973","0.0-160.0",""
"[{""page_index"":0,""viewing_time"":3484}]","3485","instructions","161","823709","0.0-161.0",""
"","7376","html-slider-response","162","831340","0.0-162.0","0"
"[{""page_index"":0,""viewing_time"":1634}]","1634","instructions","163","833228","0.0-163.0",""
"","4290","html-slider-response","164","837772","0.0-164.0","100"
"[{""page_index"":0,""viewing_time"":585}]","585","instructions","165","838612","0.0-165.0",""
"","4417","html-slider-response","166","843280","0.0-166.0","100"
"[{""page_index"":0,""viewing_time"":558}]","558","instructions","167","844092","0.0-167.0",""
"","6173","html-slider-response","168","850520","0.0-168.0","0"
"[{""page_index"":0,""viewing_time"":615}]","615","instructions","169","851388","0.0-169.0",""
"","4732","html-slider-response","170","856376","0.0-170.0","0"
"[{""page_index"":0,""viewing_time"":1175}]","1175","instructions","171","857803","0.0-171.0",""
"","3827","html-slider-response","172","861884","0.0-172.0","0"
"[{""page_index"":0,""viewing_time"":971}]","971","instructions","173","863107","0.0-173.0",""
"","7250","html-slider-response","174","870611","0.0-174.0","0"
"[{""page_index"":0,""viewing_time"":4482}]","4482","instructions","175","875347","0.0-175.0",""
"","5243","html-slider-response","176","880843","0.0-176.0","0"
"[{""page_index"":0,""viewing_time"":1260}]","1260","instructions","177","882355","0.0-177.0",""
"[{""page_index"":0,""viewing_time"":1469}]","1469","instructions","178","884075","0.0-178.0",""
"","9153","html-slider-response","179","893483","0.0-179.0","100"
"[{""page_index"":0,""viewing_time"":1864}]","1864","instructions","180","895603","0.0-180.0",""
"","5002","html-slider-response","181","900858","0.0-181.0","100"
"[{""page_index"":0,""viewing_time"":1861}]","1861","instructions","182","902970","0.0-182.0",""
"","4368","html-slider-response","183","907590","0.0-183.0","100"
"[{""page_index"":0,""viewing_time"":497}]","497","instructions","184","908338","0.0-184.0",""
"","8701","html-slider-response","185","917290","0.0-185.0","0"
"[{""page_index"":0,""viewing_time"":1033}]","1033","instructions","186","918578","0.0-186.0",""
"","4984","html-slider-response","187","923818","0.0-187.0","100"
"[{""page_index"":0,""viewing_time"":1038}]","1038","instructions","188","925106","0.0-188.0",""
"","11940","html-slider-response","189","937301","0.0-189.0","100"
"[{""page_index"":0,""viewing_time"":688}]","688","instructions","190","938241","0.0-190.0",""
"","10081","html-slider-response","191","948577","0.0-191.0","0"
"[{""page_index"":0,""viewing_time"":781}]","781","instructions","192","949609","0.0-192.0",""
"","3351","html-slider-response","193","953213","0.0-193.0","100"
"[{""page_index"":0,""viewing_time"":792}]","792","instructions","194","954257","0.0-194.0",""
"[{""page_index"":0,""viewing_time"":2619}]","2619","instructions","195","957129","0.0-195.0",""
"","5581","html-slider-response","196","962965","0.0-196.0","100"
"[{""page_index"":0,""viewing_time"":1857}]","1857","instructions","197","965073","0.0-197.0",""
"","5520","html-slider-response","198","970848","0.0-198.0","100"
"[{""page_index"":0,""viewing_time"":745}]","745","instructions","199","971848","0.0-199.0",""
"","12423","html-slider-response","200","984524","0.0-200.0","100"
"[{""page_index"":0,""viewing_time"":967}]","967","instructions","201","985744","0.0-201.0",""
"","4783","html-slider-response","202","990780","0.0-202.0","100"
"[{""page_index"":0,""viewing_time"":702}]","703","instructions","203","991736","0.0-203.0",""
"","35851","html-slider-response","204","1027842","0.0-204.0","0"
"[{""page_index"":0,""viewing_time"":622}]","622","instructions","205","1028719","0.0-205.0",""
"","6501","html-slider-response","206","1035474","0.0-206.0","100"
"[{""page_index"":0,""viewing_time"":670}]","670","instructions","207","1036398","0.0-207.0",""
"","4732","html-slider-response","208","1041382","0.0-208.0","100"
"[{""page_index"":0,""viewing_time"":889}]","889","instructions","209","1042526","0.0-209.0",""
"[{""page_index"":0,""viewing_time"":1778}]","1778","instructions","210","1044558","0.0-210.0",""
"[{""page_index"":0,""viewing_time"":1499}]","1499","instructions","211","1046310","0.0-211.0",""
"","19485","html-slider-response","212","1066050","0.0-212.0","0"
"[{""page_index"":0,""viewing_time"":1374}]","1374","instructions","213","1067677","0.0-213.0",""
"","3369","html-slider-response","214","1071297","0.0-214.0","100"
"[{""page_index"":0,""viewing_time"":487}]","487","instructions","215","1072037","0.0-215.0",""
"","6485","html-slider-response","216","1078777","0.0-216.0","0"
"[{""page_index"":0,""viewing_time"":694}]","694","instructions","217","1079725","0.0-217.0",""
"","6304","html-slider-response","218","1086281","0.0-218.0","0"
"[{""page_index"":0,""viewing_time"":814}]","814","instructions","219","1087349","0.0-219.0",""
"","5013","html-slider-response","220","1092617","0.0-220.0","100"
"[{""page_index"":0,""viewing_time"":965}]","965","instructions","221","1093837","0.0-221.0",""
"","10360","html-slider-response","222","1104448","0.0-222.0","100"
"[{""page_index"":0,""viewing_time"":695}]","695","instructions","223","1105396","0.0-223.0",""
"[{""page_index"":0,""viewing_time"":1605}]","1605","instructions","224","1107252","0.0-224.0",""
"","3943","html-slider-response","225","1111449","0.0-225.0","100"
"[{""page_index"":0,""viewing_time"":1256}]","1256","instructions","226","1112956","0.0-226.0",""
"[{""page_index"":0,""viewing_time"":2171}]","2171","instructions","227","1115380","0.0-227.0",""
"","14472","html-slider-response","228","1130108","0.0-228.0","100"
"[{""page_index"":0,""viewing_time"":1100}]","1101","instructions","229","1131460","0.0-229.0",""
"","3915","html-slider-response","230","1135628","0.0-230.0","0"
"[{""page_index"":0,""viewing_time"":548}]","548","instructions","231","1136427","0.0-231.0",""
"[{""page_index"":0,""viewing_time"":4155}]","4155","instructions","232","1140835","0.0-232.0",""
"","9484","html-slider-response","233","1150571","0.0-233.0","100"
"[{""page_index"":0,""viewing_time"":595}]","595","instructions","234","1151419","0.0-234.0",""
"","5650","html-slider-response","235","1157323","0.0-235.0","100"
"[{""page_index"":0,""viewing_time"":861}]","861","instructions","236","1158435","0.0-236.0",""
"","3156","html-slider-response","237","1161843","0.0-237.0","0"
"[{""page_index"":0,""viewing_time"":667}]","668","instructions","238","1162763","0.0-238.0",""
"","15568","html-slider-response","239","1178586","0.0-239.0","0"
"[{""page_index"":0,""viewing_time"":443}]","443","instructions","240","1179282","0.0-240.0",""
"","3458","html-slider-response","241","1182994","0.0-241.0","100"
"[{""page_index"":0,""viewing_time"":4705}]","4705","instructions","242","1187954","0.0-242.0",""
